Folder: ewanmatheson.github.io/files/EwanZnO

File: znonanowires.txt
znonanowires.spc - RawData
"Wavelength nm.,""T%"""	Transmittance	Wavelength
"300.00,0.111"	0.111	300
"304.00,0.090"	0.09	304
"308.00,0.073"	0.073	308
"312.00,0.066"	0.066	312
"316.00,0.061"	0.061	316
"320.00,0.056"	0.056	320
"324.00,0.052"	0.052	324
"328.00,0.047"	0.047	328
"332.00,0.038"	0.038	332
"336.00,0.034"	0.034	336
"340.00,0.028"	0.028	340
"344.00,0.025"	0.025	344
"348.00,0.020"	0.02	348
"352.00,0.019"	0.019	352
"356.00,0.019"	0.019	356
"360.00,0.018"	0.018	360
"364.00,0.021"	0.021	364
"368.00,0.035"	0.035	368
"372.00,0.498"	0.498	372
"376.00,3.981"	3.981	376
"380.00,11.859"	11.859	380
"384.00,21.162"	21.162	384
"388.00,29.000"	29	388
"392.00,34.901"	34.901	392
"396.00,39.215"	39.215	396
"400.00,42.478"	42.478	400
"404.00,44.943"	44.943	404
"408.00,46.795"	46.795	408
"412.00,48.217"	48.217	412
"416.00,49.527"	49.527	416
"420.00,50.532"	50.532	420
"424.00,51.433"	51.433	424
"428.00,52.267"	52.267	428
"432.00,52.977"	52.977	432
"436.00,53.627"	53.627	436
"440.00,54.186"	54.186	440
"444.00,54.733"	54.733	444
"448.00,55.303"	55.303	448
"452.00,55.753"	55.753	452
"456.00,56.216"	56.216	456
"460.00,56.587"	56.587	460
"464.00,57.075"	57.075	464
"468.00,57.537"	57.537	468
"472.00,57.844"	57.844	472
"476.00,58.280"	58.28	476
"480.00,58.660"	58.66	480
"484.00,58.965"	58.965	484
"488.00,59.326"	59.326	488
"492.00,59.673"	59.673	492
"496.00,60.067"	60.067	496
"500.00,60.420"	60.42	500
"504.00,60.693"	60.693	504
"508.00,61.053"	61.053	508
"512.00,61.356"	61.356	512
"516.00,61.658"	61.658	516
"520.00,61.977"	61.977	520
"524.00,62.250"	62.25	524
"528.00,62.579"	62.579	528
"532.00,62.827"	62.827	532
"536.00,63.090"	63.09	536
"540.00,63.381"	63.381	540
"544.00,63.673"	63.673	544
"548.00,63.878"	63.878	548
"552.00,64.175"	64.175	552
"556.00,64.419"	64.419	556
"560.00,64.638"	64.638	560
"564.00,64.854"	64.854	564
"568.00,65.120"	65.12	568
"572.00,65.323"	65.323	572
"576.00,65.543"	65.543	576
"580.00,65.788"	65.788	580
"584.00,65.927"	65.927	584
"588.00,66.141"	66.141	588
"592.00,66.351"	66.351	592
"596.00,66.490"	66.49	596
"600.00,66.697"	66.697	600
"604.00,66.908"	66.908	604
"608.00,67.015"	67.015	608
"612.00,67.225"	67.225	612
"616.00,67.455"	67.455	616
"620.00,67.598"	67.598	620
"624.00,67.713"	67.713	624
"628.00,67.939"	67.939	628
"632.00,68.084"	68.084	632
"636.00,68.254"	68.254	636
"640.00,68.399"	68.399	640
"644.00,68.558"	68.558	644
"648.00,68.660"	68.66	648
"652.00,68.882"	68.882	652
"656.00,68.935"	68.935	656
"660.00,69.082"	69.082	660
"664.00,69.195"	69.195	664
"668.00,69.334"	69.334	668
"672.00,69.575"	69.575	672
"676.00,69.640"	69.64	676
"680.00,69.792"	69.792	680
"684.00,69.845"	69.845	684
"688.00,69.996"	69.996	688
"692.00,70.135"	70.135	692
"696.00,70.171"	70.171	696
"700.00,70.405"	70.405	700
"704.00,70.486"	70.486	704
"708.00,70.464"	70.464	708
"712.00,70.502"	70.502	712
"716.00,70.716"	70.716	716
"720.00,70.760"	70.76	720
"724.00,70.971"	70.971	724
"728.00,71.004"	71.004	728
"732.00,71.058"	71.058	732
"736.00,71.198"	71.198	736
"740.00,71.178"	71.178	740
"744.00,71.381"	71.381	744
"748.00,71.406"	71.406	748
"752.00,71.445"	71.445	752
"756.00,71.606"	71.606	756
"760.00,71.489"	71.489	760
"764.00,71.724"	71.724	764
"768.00,71.730"	71.73	768
"772.00,71.741"	71.741	772
"776.00,71.829"	71.829	776
"780.00,71.880"	71.88	780
"784.00,71.991"	71.991	784
"788.00,71.864"	71.864	788
"792.00,72.065"	72.065	792
"796.00,72.150"	72.15	796
"800.00,72.038"	72.038	800
"804.00,72.094"	72.094	804
"808.00,72.055"	72.055	808
"812.00,72.210"	72.21	812
"816.00,72.268"	72.268	816
"820.00,72.418"	72.418	820
"824.00,72.234"	72.234	824
"828.00,72.281"	72.281	828
"832.00,72.007"	72.007	832
"836.00,71.935"	71.935	836
"840.00,72.171"	72.171	840
"844.00,71.920"	71.92	844
"848.00,72.084"	72.084	848
"852.00,71.919"	71.919	852
"856.00,72.133"	72.133	856
"860.00,72.149"	72.149	860
"864.00,71.982"	71.982	864
"868.00,72.151"	72.151	868
"872.00,72.223"	72.223	872
"876.00,72.305"	72.305	876
"880.00,72.286"	72.286	880
"884.00,72.264"	72.264	884
"888.00,72.265"	72.265	888
"892.00,72.322"	72.322	892
"896.00,72.315"	72.315	896
"900.00,72.114"	72.114	900
"904.00,72.401"	72.401	904
"908.00,72.224"	72.224	908
"912.00,72.207"	72.207	912
"916.00,72.196"	72.196	916
"920.00,72.213"	72.213	920
"924.00,72.168"	72.168	924
"928.00,72.188"	72.188	928
"932.00,72.140"	72.14	932
"936.00,72.130"	72.13	936
"940.00,72.128"	72.128	940
"944.00,72.030"	72.03	944
"948.00,72.099"	72.099	948
"952.00,71.985"	71.985	952
"956.00,72.086"	72.086	956
"960.00,71.948"	71.948	960
"964.00,71.961"	71.961	964
"968.00,71.974"	71.974	968
"972.00,71.935"	71.935	972
"976.00,71.954"	71.954	976
"980.00,71.886"	71.886	980
"984.00,71.829"	71.829	984
"988.00,71.774"	71.774	988
"992.00,71.720"	71.72	992
"996.00,71.662"	71.662	996
"1000.00,71.510"	71.51	1000
"1004.00,71.414"	71.414	1004
"1008.00,71.387"	71.387	1008
"1012.00,71.287"	71.287	1012
"1016.00,71.104"	71.104	1016
"1020.00,71.125"	71.125	1020
"1024.00,71.028"	71.028	1024
"1028.00,70.946"	70.946	1028
"1032.00,70.916"	70.916	1032
"1036.00,70.818"	70.818	1036
"1040.00,70.748"	70.748	1040
"1044.00,70.705"	70.705	1044
"1048.00,70.608"	70.608	1048
"1052.00,70.567"	70.567	1052
"1056.00,70.533"	70.533	1056
"1060.00,70.499"	70.499	1060
"1064.00,70.407"	70.407	1064
"1068.00,70.351"	70.351	1068
"1072.00,70.333"	70.333	1072
"1076.00,70.161"	70.161	1076
"1080.00,70.052"	70.052	1080
"1084.00,70.017"	70.017	1084
"1088.00,69.918"	69.918	1088
"1092.00,69.823"	69.823	1092
"1096.00,69.653"	69.653	1096
"1100.00,69.471"	69.471	1100
"1104.00,69.325"	69.325	1104
"1108.00,69.210"	69.21	1108
"1112.00,69.015"	69.015	1112
"1116.00,68.886"	68.886	1116
"1120.00,68.579"	68.579	1120
"1124.00,68.455"	68.455	1124
"1128.00,68.317"	68.317	1128
"1132.00,68.116"	68.116	1132
"1136.00,68.041"	68.041	1136
"1140.00,67.784"	67.784	1140
"1144.00,67.527"	67.527	1144
"1148.00,67.421"	67.421	1148
"1152.00,67.214"	67.214	1152
"1156.00,67.134"	67.134	1156
"1160.00,67.018"	67.018	1160
"1164.00,66.821"	66.821	1164
"1168.00,66.724"	66.724	1168
"1172.00,66.639"	66.639	1172
"1176.00,66.426"	66.426	1176
"1180.00,66.372"	66.372	1180
"1184.00,66.184"	66.184	1184
"1188.00,66.179"	66.179	1188
"1192.00,66.028"	66.028	1192
"1196.00,65.786"	65.786	1196
"1200.00,65.648"	65.648	1200
"1204.00,65.599"	65.599	1204
"1208.00,65.398"	65.398	1208
"1212.00,65.151"	65.151	1212
"1216.00,65.054"	65.054	1216
"1220.00,64.762"	64.762	1220
"1224.00,64.549"	64.549	1224
"1228.00,64.248"	64.248	1228
"1232.00,64.036"	64.036	1232
"1236.00,63.814"	63.814	1236
"1240.00,63.483"	63.483	1240
"1244.00,63.224"	63.224	1244
"1248.00,62.834"	62.834	1248
"1252.00,62.513"	62.513	1252
"1256.00,62.224"	62.224	1256
"1260.00,61.844"	61.844	1260
"1264.00,61.505"	61.505	1264
"1268.00,61.156"	61.156	1268
"1272.00,60.763"	60.763	1272
"1276.00,60.492"	60.492	1276
"1280.00,60.072"	60.072	1280
"1284.00,59.686"	59.686	1284
"1288.00,59.361"	59.361	1288
"1292.00,59.020"	59.02	1292
"1296.00,58.623"	58.623	1296
"1300.00,58.327"	58.327	1300
"1304.00,58.100"	58.1	1304
"1308.00,57.699"	57.699	1308
"1312.00,57.365"	57.365	1312
"1316.00,57.148"	57.148	1316
"1320.00,56.900"	56.9	1320
"1324.00,56.626"	56.626	1324
"1328.00,56.322"	56.322	1328
"1332.00,56.160"	56.16	1332
"1336.00,55.949"	55.949	1336
"1340.00,55.665"	55.665	1340
"1344.00,55.457"	55.457	1344
"1348.00,55.189"	55.189	1348
"1352.00,55.003"	55.003	1352
"1356.00,54.872"	54.872	1356
"1360.00,54.514"	54.514	1360
"1364.00,54.295"	54.295	1364
"1368.00,54.087"	54.087	1368
"1372.00,53.978"	53.978	1372
"1376.00,53.564"	53.564	1376
"1380.00,53.280"	53.28	1380
"1384.00,53.100"	53.1	1384
"1388.00,52.809"	52.809	1388
"1392.00,52.263"	52.263	1392
"1396.00,52.075"	52.075	1396
"1400.00,51.645"	51.645	1400